onset	duration	Experiment - R5CVersuchsperson	Serial_no	Stimulus	Condition	Onset_time	response	response_time	ID_Code	String_length	Word_Number	Valence	Abs_Valence	Arousal	Familiarity	Concreteness	Idiomaticity	Sem_Transp	Knowledge	Accuracy
1,627	2	11KW_412212	1	Es stšrt keinen gro§en Geist	99	1627	keine	0	274	28	5	9	9	9	9	9	9	9	9	miss
4,661	2	11KW_412212	2	Er bekam sein Fett weg	99	4661	keine	0	275	22	5	9	9	9	9	9	9	9	9	miss
7,695	2	11KW_412212	3	Wurde er kritisiert?	88	7695	Ja	2422	909	20	3	9	9	9	9	9	9	9	9	correct
13,735	2	11KW_412212	4	Er hat Schmetterlinge im Bauch	33	13735	keine	0	87	30	5	2,375	2,375	4,75	6	3,363636364	4,064976457	3,375	7	miss
16,763	2	11KW_412212	5	### ### ########## ##########	77	16763	keine	0	257	29	4	9	9	9	9	9	9	9	9	miss
22,797	2	11KW_412212	6	Er grinst Ÿber beide Ohren	33	22797	keine	0	85	26	5	2,142857143	2,142857143	5	5,333333333	4,818181818	5,050505051	6,222222222	7	miss
26,831	2	11KW_412212	7	Ist er sehr froh?	88	26831	Ja	1967	910	17	4	9	9	9	9	9	9	9	9	correct
33,866	2	11KW_412212	8	Es geht um tŠgliche Aufgaben	55	33866	keine	0	129	28	5	0	0	2,818181818	4,545454546	2,333333333	999	999	999	miss
36,906	2	11KW_412212	9	Er geht kaum noch aus dem Haus	44	36906	keine	0	118	30	7	-1	1	4,090909091	5,181818182	4,583333333	999	999	999	miss
39,938	2	11KW_412212	10	Verbringt er viel Zeit in der Natur?	88	39938	Nein	1954	911	36	7	9	9	9	9	9	9	9	9	correct
45,979	2	11KW_412212	11	Sie hat die Weisheit mit Lšffeln gefressen	22	45979	keine	0	36	42	7	-0,222222222	0,222222222	3,5	5,2	3,090909091	3,947541587	4,625	7	miss
49,008	2	11KW_412212	12	Sie schaffen das ganz gut	66	49008	keine	0	151	25	5	1,083333333	1,083333333	4,363636364	5,454545455	2,333333333	999	999	999	miss
56,042	2	11KW_412212	13	## ###### ###############	77	56042	keine	0	262	25	3	9	9	9	9	9	9	9	9	miss
60,071	2	11KW_412212	14	Er leidet sehr unter die Kritik seines Chefs	44	60071	keine	0	100	44	8	-2,083333333	2,083333333	5,727272727	3,636363636	3,833333333	999	999	999	miss
65,099	2	11KW_412212	15	#### ##### ##### ##### ####	77	65099	keine	0	237	27	5	9	9	9	9	9	9	9	9	miss
71,138	2	11KW_412212	16	Sie ist nur noch Haut und Knochen	11	71138	keine	0	12	33	7	-2	2	3,625	5,545454546	4	4,077898397	5,666666667	7	miss
75,173	2	11KW_412212	17	### ####### #### ### ######	77	75173	keine	0	211	27	5	9	9	9	9	9	9	9	9	miss
78,202	2	11KW_412212	18	####### ### ###### ######### ##### ####	77	78202	keine	0	183	39	6	9	9	9	9	9	9	9	9	miss
81,235	2	11KW_412212	19	Sie wird dafŸr hart bestraft	44	81235	keine	0	94	28	5	-2,5	2,5	5,727272727	3,545454546	3,583333333	999	999	999	miss
89,269	2	11KW_412212	20	### ### #### ##### ####	77	89269	keine	0	196	23	5	9	9	9	9	9	9	9	9	miss
97,31	2	11KW_412212	21	## ### ####### #######	77	97310	keine	0	242	22	4	9	9	9	9	9	9	9	9	miss
100,35	2	11KW_412212	22	Er ist bekannt wie ein bunter Hund	22	100350	keine	0	57	34	7	0,444444444	0,444444444	2,75	5,1	2,888888889	3,59094947	3,714285714	4,75	miss
103,384	2	11KW_412212	23	Es wurde heute aufgerŠumt	55	103384	keine	0	143	25	4	0,333333333	0,333333333	2,909090909	3,818181818	4,833333333	999	999	999	miss
106,418	2	11KW_412212	24	## ### ######### #####	77	106418	keine	0	204	22	4	9	9	9	9	9	9	9	9	miss
110,452	2	11KW_412212	25	Sie hat Geld ohne Ende	33	110452	keine	0	64	22	5	1,444444444	1,444444444	3,5	4,6	2	3,769601367	5,875	7	miss
117,479	2	11KW_412212	26	### ####### #### ######## ## ###	77	117479	keine	0	266	32	6	9	9	9	9	9	9	9	9	miss
120,509	2	11KW_412212	27	Sie hat einen Schnupfen	44	120509	keine	0	112	23	4	-1,75	1,75	3,545454546	4,545454546	5,333333333	999	999	999	miss
123,543	2	11KW_412212	28	Sie ist unfŠhig	44	123543	keine	0	106	15	3	-1,833333333	1,833333333	5,272727273	4	2,25	999	999	999	miss
126,577	2	11KW_412212	29	Er schreibt seine Gedanken auf	55	126577	keine	0	137	30	5	0,166666667	0,166666667	3,6	4,454545455	4,5	999	999	999	miss
129,611	2	11KW_412212	30	Er spaziert durch die Sonne	66	129611	keine	0	153	27	5	1,166666667	1,166666667	3,909090909	4,727272727	5,333333333	999	999	999	miss
136,645	2	11KW_412212	31	Er wird freundlich aufgenommen	66	136645	keine	0	167	30	4	1,833333333	1,833333333	4,545454546	4,636363636	3,333333333	999	999	999	miss
140,674	2	11KW_412212	32	Alles lŠuft wie immer	55	140674	keine	0	138	21	4	0,166666667	0,166666667	3,4	5	1,75	999	999	999	miss
145,701	2	11KW_412212	33	Er plaudert aus dem NŠhkŠstchen	22	145701	keine	0	35	31	5	-0,222222222	0,222222222	2,875	4,818181818	3,909090909	4,004474986	2,5	7	miss
149,742	2	11KW_412212	34	Plaudert er Geheimnisse aus?	88	149742	Ja	2451	912	28	4	9	9	9	9	9	9	9	9	correct
155,776	2	11KW_412212	35	### #### #### #########	77	155776	keine	0	181	23	4	9	9	9	9	9	9	9	9	miss
158,805	2	11KW_412212	36	#### ##### #### #####	77	158805	keine	0	184	21	4	9	9	9	9	9	9	9	9	miss
163,839	2	11KW_412212	37	Er denkt jetzt daran	55	163839	keine	0	127	20	4	0	0	2,9	5,3	2,333333333	999	999	999	miss
166,878	2	11KW_412212	38	#### ###### #########	77	166878	keine	0	233	21	3	9	9	9	9	9	9	9	9	miss
170,913	2	11KW_412212	39	Sie macht sich Sorgen um ihre Zukunft	44	170913	keine	0	101	37	7	-2,083333333	2,083333333	5,454545455	5,363636364	2,75	999	999	999	miss
177,941	2	11KW_412212	40	Er ist bis Ÿber beide Ohren verliebt	33	177941	keine	0	88	36	7	2,555555556	2,555555556	5,5	6	2,727272727	4,021927447	4,125	7	miss
182,97	2	11KW_412212	41	Es hat nichts damit zu tun	55	182970	keine	0	131	26	6	0	0	2,7	5,4	1,666666667	999	999	999	miss
189,01	2	11KW_412212	42	##### ##### ## ####### #### ########## ### ########	77	189010	keine	0	230	51	8	9	9	9	9	9	9	9	9	miss
195,044	2	11KW_412212	43	Sie ist davon verwirrt	44	195044	keine	0	116	22	4	-1,166666667	1,166666667	4,363636364	5,545454546	2,666666667	999	999	999	miss
202,079	2	11KW_412212	44	#### #### ##### ##########	77	202079	keine	0	255	26	4	9	9	9	9	9	9	9	9	miss
205,108	2	11KW_412212	45	Das war eine schšne Erinnerung	66	205108	keine	0	166	30	5	1,75	1,75	5	5,363636364	2,166666667	999	999	999	miss
210,141	2	11KW_412212	46	Er feuerte ihn	11	210141	keine	0	10	14	3	-2,111111111	2,111111111	4,875	6,636363636	3,555555556	4,003443973	2,75	5,8	miss
214,182	2	11KW_412212	47	Er grinst wie ein Honigkuchenpferd	33	214182	keine	0	73	34	5	1,666666667	1,666666667	3,875	4,545454546	4,545454546	4,048617879	3	7	miss
219,21	2	11KW_412212	48	Sie redet Klartext	22	219210	keine	0	58	18	3	0,444444444	0,444444444	4,25	6,1	4,818181818	4,1943856	5,666666667	7	miss
225,25	2	11KW_412212	49	Sie macht ihr die Hšlle hei§	11	225250	keine	0	27	28	6	-1,666666667	1,666666667	5,125	5,272727273	3,909090909	4,086060651	5,111111111	7	miss
228,284	2	11KW_412212	50	Sie versteht was er meint	55	228284	keine	0	149	25	5	0,666666667	0,666666667	3,454545455	5,545454546	3,25	999	999	999	miss
232,318	2	11KW_412212	51	Sie bekommt einen Auftrag	55	232318	keine	0	140	25	4	0,25	0,25	4	4,363636364	3,5	999	999	999	miss
235,346	2	11KW_412212	52	### ###### ### ##### ###	77	235346	keine	0	200	24	5	9	9	9	9	9	9	9	9	miss
239,38	2	11KW_412212	53	Sie sieht alles schwarz	11	239380	keine	0	2	23	4	-2,222222222	2,222222222	3,875	5,454545455	3,727272727	4,079161024	4,888888889	6,7	miss
243,409	2	11KW_412212	54	Sie lacht Ÿber den Scherz	66	243409	keine	0	161	25	5	1,583333333	1,583333333	4,454545455	4,454545455	5	999	999	999	miss
246,436	2	11KW_412212	55	Sie fŸhlt sich gesund und aktiv	66	246436	keine	0	170	31	6	1,916666667	1,916666667	4,818181818	4,363636364	4,416666667	999	999	999	miss
251,471	2	11KW_412212	56	Sie machte ihn zur Sau	11	251471	keine	0	20	22	5	-1,888888889	1,888888889	5,125	5,5	3,181818182	4,02007152	3,25	7	miss
256,51	2	11KW_412212	57	## ### ##### ############	77	256510	keine	0	194	25	4	9	9	9	9	9	9	9	9	miss
264,55	2	11KW_412212	58	## ##### ### #####	77	264550	keine	0	198	18	4	9	9	9	9	9	9	9	9	miss
268,591	2	11KW_412212	59	Sie ist nun ruhig	55	268591	keine	0	146	17	4	0,583333333	0,583333333	4	4,636363636	3,5	999	999	999	miss
271,619	2	11KW_412212	60	Er ist dumm wie Brot	11	271619	keine	0	3	20	5	-2,222222222	2,222222222	4,25	6,1	1,818181818	3,81565291	4,222222222	7	miss
274,652	2	11KW_412212	61	#### ###### ####### #####	77	274652	keine	0	191	25	4	9	9	9	9	9	9	9	9	miss
277,687	2	11KW_412212	62	Sie schert sich zum Teufel	11	277687	keine	0	5	26	5	-2,222222222	2,222222222	4,625	4,818181818	2,3	3,823033539	3,888888889	7	miss
284,721	2	11KW_412212	63	Sie baut Luftschlšsser	22	284721	keine	0	37	22	3	-0,125	0,125	3,75	4,1	2,181818182	3,684456299	5,375	7	miss
287,75	2	11KW_412212	64	## ## ##########	77	287750	keine	0	239	16	3	9	9	9	9	9	9	9	9	miss
290,784	2	11KW_412212	65	## ######## ##### #####	77	290784	keine	0	264	23	4	9	9	9	9	9	9	9	9	miss
296,818	2	11KW_412212	66	#### #### ### ##### ### #####	77	296818	keine	0	229	29	6	9	9	9	9	9	9	9	9	miss
301,851	2	11KW_412212	67	Er ist wie aus dem Ei gepellt	33	301851	keine	0	63	29	7	1,333333333	1,333333333	2,75	4,636363636	3,181818182	3,856886217	4,777777778	6,5	miss
304,892	2	11KW_412212	68	Er hat einen guten Draht zu ihm	33	304892	keine	0	79	31	7	2	2	3,5	6,272727273	2	3,794818339	5	7	miss
307,926	2	11KW_412212	69	Das war eine schwierige Entscheidung	44	307926	keine	0	120	36	5	-0,363636364	0,363636364	5	5,909090909	2,166666667	999	999	999	miss
312,96	2	11KW_412212	70	Er ist eine falsche Schlange	11	312960	keine	0	6	28	5	-2,222222222	2,222222222	4,375	4,9	2	3,858075672	4	7	miss
319	2	11KW_412212	71	### ####### #### ### ### ######## ### #########	77	319000	keine	0	206	47	8	9	9	9	9	9	9	9	9	miss
325,034	2	11KW_412212	72	## ##### ###### ##### #####	77	325034	keine	0	270	28	5	9	9	9	9	9	9	9	9	miss
329,068	2	11KW_412212	73	Sie wŠgt ihre Worte ab	22	329068	keine	0	43	22	5	0	0	1,875	5,272727273	2,818181818	3,743860744	5,428571429	7	miss
334,097	2	11KW_412212	74	Er schŸttet ihr sein Herz aus	22	334097	keine	0	51	29	6	0,222222222	0,222222222	4,625	5,909090909	2,888888889	3,851628559	5,444444444	7	miss
340,136	2	11KW_412212	75	### #### ## ### #####	77	340136	keine	0	202	21	5	9	9	9	9	9	9	9	9	miss
343,171	2	11KW_412212	76	### #### ####### ##	77	343171	keine	0	241	19	4	9	9	9	9	9	9	9	9	miss
346,205	2	11KW_412212	77	Sie ist stur wie ein Bock	11	346205	keine	0	22	25	6	-1,777777778	1,777777778	3,375	5,1	2,4	3,724225263	5,375	7	miss
350,239	2	11KW_412212	78	Ist sie sehr nachgiebig?	88	350239	Nein	3406	913	24	4	9	9	9	9	9	9	9	9	correct
357,272	2	11KW_412212	79	Es ist Jacke wie Hose	22	357272	keine	0	46	21	5	0,111111111	0,111111111	5,125	5,4	1,818181818	3,840995304	2,375	6,4	miss
361,312	2	11KW_412212	80	Er ist wŸtend auf sie	44	361312	keine	0	103	21	5	-2	2	5,727272727	5,272727273	3,583333333	999	999	999	miss
366,341	2	11KW_412212	81	Er schweigt wie ein Grab	22	366341	keine	0	47	24	5	0,111111111	0,111111111	3,75	5,454545455	4	4,004517337	5,888888889	6,5	miss
369,38	2	11KW_412212	82	VerrŠt er das Geheimnis?	88	369380	Nein	3513	914	24	4	9	9	9	9	9	9	9	9	correct
374,421	2	11KW_412212	83	Sie holt fŸr ihn die Sterne vom Himmel	33	374421	keine	0	84	38	8	2,125	2,125	4,375	5,7	2,454545455	3,838892776	5,25	7	miss
377,455	2	11KW_412212	84	#### ###### ###### #######	77	377455	keine	0	256	26	4	9	9	9	9	9	9	9	9	miss
380,488	2	11KW_412212	85	Ihr lŠuft die Galle Ÿber	11	380488	keine	0	13	24	5	-2	2	4,285714286	3,333333333	3,454545455	3,691197691	3,125	3,625	miss
385,522	2	11KW_412212	86	Mir fŠllt ein Stein vom Herzen	33	385522	keine	0	75	30	6	1,777777778	1,777777778	5,125	6,2	2,909090909	4,029881943	5,75	7	miss
391,562	2	11KW_412212	87	Bin ich erleichtert?	88	391562	Ja	2049	915	20	3	9	9	9	9	9	9	9	9	correct
398,603	2	11KW_412212	88	### ##### ### ####### ####	77	398603	keine	0	226	26	5	9	9	9	9	9	9	9	9	miss
401,642	2	11KW_412212	89	Sie kommt auf einen Sprung herein	22	401642	keine	0	53	33	6	0,25	0,25	2,375	4,9	3,545454546	3,789847865	3,25	6	miss
408,676	2	11KW_412212	90	Sie lernte es mŸhelos	66	408676	keine	0	156	21	4	1,333333333	1,333333333	4,363636364	3,909090909	3,25	999	999	999	miss
413,705	2	11KW_412212	91	Er genie§t die Gesellschaft	66	413705	keine	0	176	27	4	2	2	5	5,181818182	3,333333333	999	999	999	miss
416,744	2	11KW_412212	92	### #### ##### ######## #### ###	77	416744	keine	0	186	32	6	9	9	9	9	9	9	9	9	miss
422,779	2	11KW_412212	93	Sie bespricht die Angelegenheit mit ihren Kollegen	55	422779	keine	0	126	50	7	0	0	3,181818182	5,181818182	5,363636364	999	999	999	miss
430,813	2	11KW_412212	94	HŠlt sie die Angelegenheit geheim?	88	430813	Nein	3057	916	34	5	9	9	9	9	9	9	9	9	correct
439,86	2	11KW_412212	95	Er ist total zufrieden mit sich	66	439860	keine	0	179	31	6	2,583333333	2,583333333	5,545454546	4,818181818	2,833333333	999	999	999	miss
442,888	2	11KW_412212	96	Das ist beruhigend	66	442888	keine	0	157	18	3	1,333333333	1,333333333	4,363636364	5,636363636	3,083333333	999	999	999	miss
445,923	2	11KW_412212	97	## ### #### ###### ### ### ########## ##	77	445923	keine	0	250	40	7	9	9	9	9	9	9	9	9	miss
448,956	2	11KW_412212	98	Er hatte Schwierigkeiten damit	44	448956	keine	0	117	30	4	-1,166666667	1,166666667	4,727272727	5	1,916666667	999	999	999	miss
453,99	2	11KW_412212	99	## ### ##### ######## ##### #########	77	453990	keine	0	246	37	6	9	9	9	9	9	9	9	9	miss
459,03	2	11KW_412212	100	Sie eroberte sein Herz	33	459030	keine	0	80	22	4	2	2	5,125	5,545454546	2,4	3,894545162	5,777777778	6,4	miss
