onset	duration	Experiment - R1BVersuchsperson	Serial_no	Stimulus	Condition	Onset_time	response	response_time	ID_Code	String_length	Word_Number	Valence	Abs_Valence	Arousal	Familiarity	Concreteness	Idiomaticity	Sem_Transp	Knowledge	Accuracy
1,628	2	26LH_loe4195	1	Es st_rt keinen gro¤en Geist	99	1628	keine	0	274	28	5	9	9	9	9	9	9	9	9	miss
4,661	2	26LH_loe4195	2	Sie hat etwas vor	99	4661	keine	0	271	17	4	9	9	9	9	9	9	9	9	miss
7,695	2	26LH_loe4195	3	Er steht im Zenit seines Lebens	33	7695	keine	0	71	31	6	1,666666667	1,666666667	3,625	3	2,727272727	3,675413869	4,875	5,5	miss
12,728	2	26LH_loe4195	4	### ### ##### #########	77	12728	keine	0	227	23	4	9	9	9	9	9	9	9	9	miss
18,768	2	26LH_loe4195	5	Sie geht an die Decke	11	18768	keine	0	23	21	5	-1,777777778	1,777777778	5,25	5,8	2,9	3,877562694	3,375	7	miss
24,803	2	26LH_loe4195	6	Das war eine schwierige Entscheidung	44	24803	keine	0	120	36	5	-0,363636364	0,363636364	5	5,909090909	2,166666667	999	999	999	miss
29,837	2	26LH_loe4195	7	Sie holt fÙr ihn die Sterne vom Himmel	33	29837	keine	0	84	38	8	2,125	2,125	4,375	5,7	2,454545455	3,838892776	5,25	7	miss
32,877	2	26LH_loe4195	8	BemÙht sie sich fÙr ihn?	88	32877	keine	0	901	24	5	9	9	9	9	9	9	9	9	miss
37,916	2	26LH_loe4195	9	Sie setzen ihn auf freien Fu¤	22	37916	keine	0	49	29	6	0,222222222	0,222222222	3	5,1	2,222222222	3,505876556	3,777777778	7	miss
40,95	2	26LH_loe4195	10	## #### ##### ##########	77	40950	keine	0	221	24	4	9	9	9	9	9	9	9	9	miss
43,984	2	26LH_loe4195	11	Er hat bei ihm verspielt	11	43984	keine	0	25	24	5	-1,777777778	1,777777778	4,375	4,818181818	2,363636364	3,915117004	4	7	miss
48,018	2	26LH_loe4195	12	#### ## ### ##### ######	77	48018	keine	0	232	24	5	9	9	9	9	9	9	9	9	miss
51,046	2	26LH_loe4195	13	Er ist Ùberheblich	44	51046	keine	0	102	18	3	-2	2	4,909090909	4,818181818	2,5	999	999	999	miss
58,08	2	26LH_loe4195	14	Sie sieht alles schwarz	11	58080	keine	0	2	23	4	-2,222222222	2,222222222	3,875	5,454545455	3,727272727	4,079161024	4,888888889	6,7	miss
63,109	2	26LH_loe4195	15	## ### ##### ############	77	63109	keine	0	194	25	4	9	9	9	9	9	9	9	9	miss
67,149	2	26LH_loe4195	16	Es passt wie die Faust aufs Auge	33	67149	keine	0	68	32	7	1,666666667	1,666666667	3	5,9	2,9	3,753424585	4	7	miss
73,177	2	26LH_loe4195	17	Sie schl_ft gut	66	73177	keine	0	168	15	3	1,833333333	1,833333333	4,454545455	5,272727273	4,916666667	999	999	999	miss
76,212	2	26LH_loe4195	18	Er fÙhlt sich nicht wohl	44	76212	keine	0	107	24	5	-1,833333333	1,833333333	4,727272727	5,181818182	2,75	999	999	999	miss
79,246	2	26LH_loe4195	19	Sie redet nicht um den hei¤en Brei	22	79246	keine	0	33	34	7	-0,222222222	0,222222222	3,285714286	5,272727273	3,777777778	3,812515985	2,875	6,5	miss
84,28	2	26LH_loe4195	20	Sie haben einen Bericht geschrieben	55	84280	keine	0	132	35	5	0,083333333	0,083333333	2,909090909	5,090909091	4,583333333	999	999	999	miss
91,319	2	26LH_loe4195	21	Haben Sie einen Film gedreht?	88	91319	keine	0	902	29	5	9	9	9	9	9	9	9	9	miss
96,354	2	26LH_loe4195	22	### ##### ### ####### ####	77	96354	keine	0	226	26	5	9	9	9	9	9	9	9	9	miss
100,388	2	26LH_loe4195	23	Er schweigt wie ein Grab	22	100388	keine	0	47	24	5	0,111111111	0,111111111	3,75	5,454545455	4	4,004517337	5,888888889	6,5	miss
103,417	2	26LH_loe4195	24	Sie verwirklicht nun ihren Wunsch	66	103417	keine	0	178	33	5	2,166666667	2,166666667	5,363636364	4	2,333333333	999	999	999	miss
106,45	2	26LH_loe4195	25	### ### ##### #############	77	106450	keine	0	238	27	4	9	9	9	9	9	9	9	9	miss
110,485	2	26LH_loe4195	26	Er wird den ganzen Tag in der Schule ge_rgert	44	110485	keine	0	92	45	9	-2,583333333	2,583333333	4,818181818	3,727272727	3,916666667	999	999	999	miss
114,513	2	26LH_loe4195	27	Alles l_uft wie immer	55	114513	keine	0	138	21	4	0,166666667	0,166666667	3,4	5	1,75	999	999	999	miss
122,54	2	26LH_loe4195	28	### ### ##### ### #### #####	77	122540	keine	0	203	28	6	9	9	9	9	9	9	9	9	miss
125,581	2	26LH_loe4195	29	Sie ist im siebten Himmel	33	125581	keine	0	89	25	5	2,666666667	2,666666667	5,25	5,818181818	2	4,014157968	3,666666667	7	miss
129,615	2	26LH_loe4195	30	### ### #########	77	129615	keine	0	240	17	3	9	9	9	9	9	9	9	9	miss
132,643	2	26LH_loe4195	31	#### #### ##### ##########	77	132643	keine	0	255	26	4	9	9	9	9	9	9	9	9	miss
138,678	2	26LH_loe4195	32	Er grinst wie ein Honigkuchenpferd	33	138678	keine	0	73	34	5	1,666666667	1,666666667	3,875	4,545454546	4,545454546	4,048617879	3	7	miss
142,712	2	26LH_loe4195	33	Ihm ist Ùbel geworden	44	142712	keine	0	104	21	4	-1,916666667	1,916666667	4,727272727	4,636363636	4,75	999	999	999	miss
146,741	2	26LH_loe4195	34	Sie ist stur wie ein Bock	11	146741	keine	0	22	25	6	-1,777777778	1,777777778	3,375	5,1	2,4	3,724225263	5,375	7	miss
152,769	2	26LH_loe4195	35	Sie eroberte sein Herz	33	152769	keine	0	80	22	4	2	2	5,125	5,545454546	2,4	3,894545162	5,777777778	6,4	miss
160,804	2	26LH_loe4195	36	##### ##### ## ####### #### ########## ### ########	77	160804	keine	0	230	51	8	9	9	9	9	9	9	9	9	miss
163,844	2	26LH_loe4195	37	Hast du soeben einen Satz gelesen?	88	163844	Nein	1553	903	34	6	9	9	9	9	9	9	9	9	correct
168,884	2	26LH_loe4195	38	### ##### ##### ## ### ###### ####	77	168884	keine	0	209	34	7	9	9	9	9	9	9	9	9	miss
171,918	2	26LH_loe4195	39	Er ist ein anstrengender Mensch	44	171918	keine	0	111	31	5	-1,75	1,75	5	5,454545455	2,75	999	999	999	miss
177,951	2	26LH_loe4195	40	Sie schaut ihn liebevoll an	66	177951	keine	0	175	27	5	2	2	5,272727273	5,363636364	5,75	999	999	999	miss
181,986	2	26LH_loe4195	41	### ### ##### ######## ###########	77	181986	keine	0	244	34	5	9	9	9	9	9	9	9	9	miss
185,014	2	26LH_loe4195	42	Er hatte Schwierigkeiten damit	44	185014	keine	0	117	30	4	-1,166666667	1,166666667	4,727272727	5	1,916666667	999	999	999	miss
188,048	2	26LH_loe4195	43	Schaffte er es mit Leichtigkeit?	88	188048	Nein	2065	904	32	5	9	9	9	9	9	9	9	9	correct
194,088	2	26LH_loe4195	44	## ##### ### ##### ### #######	77	194088	keine	0	223	30	6	9	9	9	9	9	9	9	9	miss
200,116	2	26LH_loe4195	45	Er betrachtet es genau	55	200116	keine	0	135	22	4	0,166666667	0,166666667	3,3	4,909090909	5,636363636	999	999	999	miss
203,15	2	26LH_loe4195	46	Schaut er genau hin?	88	203150	Ja	1518	905	20	4	9	9	9	9	9	9	9	9	correct
209,19	2	26LH_loe4195	47	#### ## ### ##### #####	77	209190	keine	0	197	23	5	9	9	9	9	9	9	9	9	miss
213,219	2	26LH_loe4195	48	Es steht noch in den Sternen	22	213219	keine	0	52	28	6	0,25	0,25	2,375	4,818181818	2,090909091	3,644557397	3,5	6,571428571	miss
216,246	2	26LH_loe4195	49	Sie bricht ihm das Herz	11	216246	keine	0	7	23	5	-2,222222222	2,222222222	5,5	6,3	2,909090909	4,041178878	5	7	miss
224,281	2	26LH_loe4195	50	Sie lassen Gras Ùber die Sache wachsen	22	224281	keine	0	45	38	7	0	0	2,75	4,909090909	2,454545455	3,805733947	4,5	7	miss
228,321	2	26LH_loe4195	51	Er lebt wie Gott in Frankreich	33	228321	keine	0	66	30	6	1,555555556	1,555555556	3,875	4,2	2,333333333	3,564309236	3,25	7	miss
232,351	2	26LH_loe4195	52	Sie haben sowohl _hnliche wie auch unterschiedliche Ansichten	55	232351	keine	0	139	61	8	0,181818182	0,181818182	3,1	4	2,75	999	999	999	miss
240,377	2	26LH_loe4195	53	Sie s_uft wie ein Loch	11	240377	keine	0	24	22	5	-1,777777778	1,777777778	4	5	4	3,890047159	4,75	7	miss
243,418	2	26LH_loe4195	54	### #### ####### ##	77	243418	keine	0	241	19	4	9	9	9	9	9	9	9	9	miss
250,45	2	26LH_loe4195	55	## ### ##### ######	77	250450	keine	0	261	19	4	9	9	9	9	9	9	9	9	miss
253,482	2	26LH_loe4195	56	Sie gehen vor die Hunde	11	253482	keine	0	9	23	5	-2,111111111	2,111111111	2,125	4,636363636	3	3,811924834	2,875	5,5	miss
257,516	2	26LH_loe4195	57	Er hat es faustdick hinter den Ohren	22	257516	keine	0	40	36	7	-0,111111111	0,111111111	3,428571429	5,454545455	2	3,673057713	2,777777778	7	miss
261,544	2	26LH_loe4195	58	## ##### #### ####	77	261544	keine	0	236	18	4	9	9	9	9	9	9	9	9	miss
264,573	2	26LH_loe4195	59	Sie ist die Ehrlichkeit in Person	33	264573	keine	0	83	33	6	2,111111111	2,111111111	3,375	5	2,272727273	3,861333287	5,875	7	miss
267,607	2	26LH_loe4195	60	Sie veranstalten eine Party fÙr ihn	66	267607	keine	0	159	35	6	1,5	1,5	4,181818182	4,545454546	4,833333333	999	999	999	miss
272,64	2	26LH_loe4195	61	## ### #### ###### ### ### ########## ##	77	272640	keine	0	250	40	7	9	9	9	9	9	9	9	9	miss
275,679	2	26LH_loe4195	62	## #### #### #######	77	275679	keine	0	220	20	4	9	9	9	9	9	9	9	9	miss
278,713	2	26LH_loe4195	63	Sie wird herzlich begrÙ¤t	66	278713	keine	0	171	25	4	1,916666667	1,916666667	5,454545455	5,545454546	4,916666667	999	999	999	miss
282,747	2	26LH_loe4195	64	Sie lacht Ùber den Scherz	66	282747	keine	0	161	25	5	1,583333333	1,583333333	4,454545455	4,454545455	5	999	999	999	miss
287,775	2	26LH_loe4195	65	Weinte sie vor Trauer?	88	287775	Nein	1128	906	22	4	9	9	9	9	9	9	9	9	correct
293,822	2	26LH_loe4195	66	Sie ist nun ruhig	55	293822	keine	0	146	17	4	0,583333333	0,583333333	4	4,636363636	3,5	999	999	999	miss
300,849	2	26LH_loe4195	67	### ####### #### ###	77	300849	keine	0	192	20	4	9	9	9	9	9	9	9	9	miss
304,88	2	26LH_loe4195	68	## ### #### ###### ### ### ### ####### ########	77	304880	keine	0	216	47	9	9	9	9	9	9	9	9	9	miss
307,908	2	26LH_loe4195	69	## ## ##########	77	307908	keine	0	239	16	3	9	9	9	9	9	9	9	9	miss
312,941	2	26LH_loe4195	70	Sie denkt Ùber die Vor- und Nachteile nach	55	312941	keine	0	134	42	8	0,166666667	0,166666667	3,4	4,818181818	2,416666667	999	999	999	miss
316,981	2	26LH_loe4195	71	Er grinst Ùber beide Ohren	33	316981	keine	0	85	26	5	2,142857143	2,142857143	5	5,333333333	4,818181818	5,050505051	6,222222222	7	miss
321,01	2	26LH_loe4195	72	Sie ist ÙberglÙcklich deswegen	66	321010	keine	0	180	30	4	2,666666667	2,666666667	6,454545455	4,818181818	2,416666667	999	999	999	miss
324,037	2	26LH_loe4195	73	Sie lernte es mÙhelos	66	324037	keine	0	156	21	4	1,333333333	1,333333333	4,363636364	3,909090909	3,25	999	999	999	miss
328,072	2	26LH_loe4195	74	Er leidet unter der Trennung seiner Eltern	44	328072	keine	0	99	42	7	-2,166666667	2,166666667	5,636363636	4,727272727	3,083333333	999	999	999	miss
332,101	2	26LH_loe4195	75	## ###### ###############	77	332101	keine	0	262	25	3	9	9	9	9	9	9	9	9	miss
337,129	2	26LH_loe4195	76	Sie ist unf_hig	44	337129	keine	0	106	15	3	-1,833333333	1,833333333	5,272727273	4	2,25	999	999	999	miss
344,169	2	26LH_loe4195	77	Er schÙttet ihr sein Herz aus	22	344169	keine	0	51	29	6	0,222222222	0,222222222	4,625	5,909090909	2,888888889	3,851628559	5,444444444	7	miss
349,198	2	26LH_loe4195	78	#### ##### ##### ### ########	77	349198	keine	0	235	29	5	9	9	9	9	9	9	9	9	miss
352,238	2	26LH_loe4195	79	Sie schwitzte Blut und Wasser	11	352238	keine	0	30	29	5	-1,111111111	1,111111111	4,142857143	4,8	4	4,314285714	4	5	miss
355,271	2	26LH_loe4195	80	### #### ## ### #####	77	355271	keine	0	202	21	5	9	9	9	9	9	9	9	9	miss
358,306	2	26LH_loe4195	81	Hast du soeben Rautezeichen gesehen?	88	358306	Ja	1614	907	36	5	9	9	9	9	9	9	9	9	correct
364,345	2	26LH_loe4195	82	Er verliert seine Arbeit	44	364345	keine	0	97	24	4	-2,333333333	2,333333333	5,454545455	4,272727273	3,416666667	999	999	999	miss
370,373	2	26LH_loe4195	83	Sie macht ihr die H_lle hei¤	11	370373	keine	0	27	28	6	-1,666666667	1,666666667	5,125	5,272727273	3,909090909	4,086060651	5,111111111	7	miss
374,408	2	26LH_loe4195	84	Es hat nichts damit zu tun	55	374408	keine	0	131	26	6	0	0	2,7	5,4	1,666666667	999	999	999	miss
381,437	2	26LH_loe4195	85	Er dreht das Rad der Zeit zurÙck	22	381437	keine	0	44	32	7	0	0	3,625	4	1,909090909	3,570017449	5,111111111	7	miss
389,466	2	26LH_loe4195	86	## ### ##### ######## ##### #########	77	389466	keine	0	246	37	6	9	9	9	9	9	9	9	9	miss
392,506	2	26LH_loe4195	87	### ##### ### #### #######	77	392506	keine	0	201	26	5	9	9	9	9	9	9	9	9	miss
395,54	2	26LH_loe4195	88	Sie kommt auf einen Sprung herein	22	395540	keine	0	53	33	6	0,25	0,25	2,375	4,9	3,545454546	3,789847865	3,25	6	miss
399,574	2	26LH_loe4195	89	Es hat sich nichts bei ihr ver_ndert	55	399574	keine	0	121	36	7	-0,272727273	0,272727273	2,9	4,545454546	1,75	999	999	999	miss
404,601	2	26LH_loe4195	90	## #### #### #####	77	404601	keine	0	259	18	4	9	9	9	9	9	9	9	9	miss
410,642	2	26LH_loe4195	91	Sie bekommt einen Auftrag	55	410642	keine	0	140	25	4	0,25	0,25	4	4,363636364	3,5	999	999	999	miss
414,676	2	26LH_loe4195	92	Es ist gehÙpft wie gesprungen	22	414676	keine	0	42	29	5	0	0	2,625	5,111111111	2,111111111	3,451564843	4,5	5	miss
422,705	2	26LH_loe4195	93	Sie Ùberlegt sich wie sie weitermachen kann	55	422705	keine	0	128	43	7	0	0	4,1	5,363636364	2,583333333	999	999	999	miss
425,745	2	26LH_loe4195	94	Sie schaffen das ganz gut	66	425745	keine	0	151	25	5	1,083333333	1,083333333	4,363636364	5,454545455	2,333333333	999	999	999	miss
430,779	2	26LH_loe4195	95	Gelingt es ihnen?	88	430779	Ja	1063	908	17	3	9	9	9	9	9	9	9	9	correct
436,825	2	26LH_loe4195	96	Mir f_llt ein Stein vom Herzen	33	436825	keine	0	75	30	6	1,777777778	1,777777778	5,125	6,2	2,909090909	4,029881943	5,75	7	miss
440,853	2	26LH_loe4195	97	Er freundet sich mit ihm an	66	440853	keine	0	165	27	6	1,666666667	1,666666667	4,272727273	4,909090909	3,583333333	999	999	999	miss
443,882	2	26LH_loe4195	98	## ##### ### ### ###### ### ######	77	443882	keine	0	225	34	7	9	9	9	9	9	9	9	9	miss
449,915	2	26LH_loe4195	99	Er ist eine falsche Schlange	11	449915	keine	0	6	28	5	-2,222222222	2,222222222	4,375	4,9	2	3,858075672	4	7	miss
453,948	2	26LH_loe4195	100	### ###### ### ##### ###	77	453948	keine	0	200	24	5	9	9	9	9	9	9	9	9	miss
