onset	duration	Experiment - R4DVersuchsperson	Serial_no	Stimulus	Condition	Onset_time	response	response_time	ID_Code	String_length	Word_Number	Valence	Abs_Valence	Arousal	Familiarity	Concreteness	Idiomaticity	Sem_Transp	Knowledge	Accuracy
1,627	2	12AF_412312	1	Sie ist sehr konzentriert	99	1627	keine	0	276	25	4	9	9	9	9	9	9	9	9	miss
4,66	2	12AF_412312	2	Es hat viel damit zu tun	99	4660	keine	0	273	24	6	9	9	9	9	9	9	9	9	miss
7,695	2	12AF_412312	3	Sie verbrachten ein entspanntes Wochenende	66	7695	keine	0	172	42	5	1,916666667	1,916666667	4,909090909	5,636363636	3,333333333	999	999	999	miss
10,728	2	12AF_412312	4	Er schŸttet ihr sein Herz aus	22	10728	keine	0	51	29	6	0,222222222	0,222222222	4,625	5,909090909	2,888888889	3,851628559	5,444444444	7	miss
13,762	2	12AF_412312	5	Sie wird herzlich begrŸ§t	66	13762	keine	0	171	25	4	1,916666667	1,916666667	5,454545455	5,545454546	4,916666667	999	999	999	miss
18,795	2	12AF_412312	6	Sie schaffen das ganz gut	66	18795	keine	0	151	25	5	1,083333333	1,083333333	4,363636364	5,454545455	2,333333333	999	999	999	miss
24,835	2	12AF_412312	7	### ### ########## ##########	77	24835	keine	0	257	29	4	9	9	9	9	9	9	9	9	miss
28,87	2	12AF_412312	8	### ### ##### ### #### #####	77	28870	keine	0	203	28	6	9	9	9	9	9	9	9	9	miss
32,898	2	12AF_412312	9	#### ###### ####### #####	77	32898	keine	0	191	25	4	9	9	9	9	9	9	9	9	miss
37,927	2	12AF_412312	10	Er genie§t die Gesellschaft	66	37927	keine	0	176	27	4	2	2	5	5,181818182	3,333333333	999	999	999	miss
41,966	2	12AF_412312	11	Er gewinnt neues Selbstvertrauen	66	41966	keine	0	169	32	4	1,833333333	1,833333333	5,272727273	4,363636364	2,583333333	999	999	999	miss
45,995	2	12AF_412312	12	Es passt wie die Faust aufs Auge	33	45995	keine	0	68	32	7	1,666666667	1,666666667	3	5,9	2,9	3,753424585	4	7	miss
49,023	2	12AF_412312	13	Passt es sehr gut zusammen?	88	49023	Ja	2660	901	27	5	9	9	9	9	9	9	9	9	correct
55,063	2	12AF_412312	14	### #### ##### ######## #### ###	77	55063	keine	0	186	32	6	9	9	9	9	9	9	9	9	miss
61,091	2	12AF_412312	15	Er freundet sich mit ihm an	66	61091	keine	0	165	27	6	1,666666667	1,666666667	4,272727273	4,909090909	3,583333333	999	999	999	miss
64,126	2	12AF_412312	16	## ##### ### #####	77	64126	keine	0	198	18	4	9	9	9	9	9	9	9	9	miss
67,16	2	12AF_412312	17	Sie hat einen Schnupfen	44	67160	keine	0	112	23	4	-1,75	1,75	3,545454546	4,545454546	5,333333333	999	999	999	miss
71,194	2	12AF_412312	18	LŠuft ihre Nase?	88	71194	Ja	3336	902	16	3	9	9	9	9	9	9	9	9	correct
78,227	2	12AF_412312	19	Er schreibt seine Gedanken auf	55	78227	keine	0	137	30	5	0,166666667	0,166666667	3,6	4,454545455	4,5	999	999	999	miss
85,269	2	12AF_412312	20	Er hat Schmetterlinge im Bauch	33	85269	keine	0	87	30	5	2,375	2,375	4,75	6	3,363636364	4,064976457	3,375	7	miss
91,297	2	12AF_412312	21	Er plaudert aus dem NŠhkŠstchen	22	91297	keine	0	35	31	5	-0,222222222	0,222222222	2,875	4,818181818	3,909090909	4,004474986	2,5	7	miss
94,332	2	12AF_412312	22	Er geht kaum noch aus dem Haus	44	94332	keine	0	118	30	7	-1	1	4,090909091	5,181818182	4,583333333	999	999	999	miss
98,365	2	12AF_412312	23	Sie redet nicht um den hei§en Brei	22	98365	keine	0	33	34	7	-0,222222222	0,222222222	3,285714286	5,272727273	3,777777778	3,812515985	2,875	6,5	miss
103,394	2	12AF_412312	24	Sie legt nicht jedes Wort auf die Goldwaage	22	103394	keine	0	41	43	8	-0,111111111	0,111111111	3,5	5,3	2,1	3,691932371	5,428571429	6,25	miss
108,433	2	12AF_412312	25	Er ist Feuer und Flamme	33	108433	keine	0	82	23	5	2,111111111	2,111111111	4,285714286	5,7	3,272727273	3,844404201	3,125	7	miss
111,473	2	12AF_412312	26	Er hat einen guten Draht zu ihm	33	111473	keine	0	79	31	7	2	2	3,5	6,272727273	2	3,794818339	5	7	miss
117,507	2	12AF_412312	27	Sie ist unsterblich verliebt	33	117507	keine	0	78	28	4	1,888888889	1,888888889	5	6,1	2,363636364	3,974284916	5,111111111	6,625	miss
124,542	2	12AF_412312	28	Er benimmt sich wie ein Elefant im Porzellanladen	11	124542	keine	0	28	49	8	-1,666666667	1,666666667	4,125	5,4	3,363636364	4,014075192	5,714285714	7	miss
129,57	2	12AF_412312	29	Er ist wŸtend auf sie	44	129570	keine	0	103	21	5	-2	2	5,727272727	5,272727273	3,583333333	999	999	999	miss
137,61	2	12AF_412312	30	Sie strukturiert ihre Arbeit	55	137610	keine	0	150	28	4	0,833333333	0,833333333	2,909090909	4,636363636	4	999	999	999	miss
141,651	2	12AF_412312	31	Er lŠsst kein gutes Haar daran	11	141651	keine	0	26	30	6	-1,75	1,75	3,625	5,222222222	2	3,634250914	3,888888889	7	miss
144,679	2	12AF_412312	32	Sie ist die Ehrlichkeit in Person	33	144679	keine	0	83	33	6	2,111111111	2,111111111	3,375	5	2,272727273	3,861333287	5,875	7	miss
148,713	2	12AF_412312	33	## ######## ##### #####	77	148713	keine	0	264	23	4	9	9	9	9	9	9	9	9	miss
151,742	2	12AF_412312	34	Er fŸhrt Bšses im Schilde	11	151742	keine	0	8	25	5	-2,111111111	2,111111111	4	5,545454546	2,363636364	3,920169782	4,222222222	6,4	miss
158,776	2	12AF_412312	35	### ### ##### ######## ###########	77	158776	keine	0	244	34	5	9	9	9	9	9	9	9	9	miss
161,803	2	12AF_412312	36	Sie ist nun ruhig	55	161803	keine	0	146	17	4	0,583333333	0,583333333	4	4,636363636	3,5	999	999	999	miss
167,839	2	12AF_412312	37	Er lŠsst sich deswegen keine grauen Haare wachsen	22	167839	keine	0	54	49	8	0,333333333	0,333333333	2,5	3,8	3,636363636	3,711672241	3,571428571	6,8	miss
170,873	2	12AF_412312	38	##### ##### ##### ##### #### ####	77	170873	keine	0	189	33	6	9	9	9	9	9	9	9	9	miss
174,906	2	12AF_412312	39	Er fŸhlt sich nicht wohl	44	174906	keine	0	107	24	5	-1,833333333	1,833333333	4,727272727	5,181818182	2,75	999	999	999	miss
177,935	2	12AF_412312	40	### ### ##### #########	77	177935	keine	0	227	23	4	9	9	9	9	9	9	9	9	miss
184,969	2	12AF_412312	41	Ihr lŠuft die Galle Ÿber	11	184969	keine	0	13	24	5	-2	2	4,285714286	3,333333333	3,454545455	3,691197691	3,125	3,625	miss
188,998	2	12AF_412312	42	### ##### ### ##### ####	77	188998	keine	0	195	24	5	9	9	9	9	9	9	9	9	miss
193,027	2	12AF_412312	43	Er fŠllt durch die AbschlussprŸfung	44	193027	keine	0	95	35	5	-2,5	2,5	5,454545455	3,454545455	3,833333333	999	999	999	miss
196,055	2	12AF_412312	44	Er folgt der Stimme seines Herzens	33	196055	keine	0	81	34	6	2	2	4,142857143	5,2	2,818181818	3,821729672	5,111111111	7	miss
200,089	2	12AF_412312	45	#### #### ### ##### ### #####	77	200089	keine	0	229	29	6	9	9	9	9	9	9	9	9	miss
206,118	2	12AF_412312	46	Wurden dir soeben kleine Kreise gezeigt?	88	206118	Nein	2001	903	40	6	9	9	9	9	9	9	9	9	correct
211,158	2	12AF_412312	47	Es macht keinen Unterschied fŸr ihn	55	211158	keine	0	124	35	6	-0,090909091	0,090909091	3	5,181818182	2	999	999	999	miss
215,192	2	12AF_412312	48	Sie verwirklicht nun ihren Wunsch	66	215192	keine	0	178	33	5	2,166666667	2,166666667	5,363636364	4	2,333333333	999	999	999	miss
219,22	2	12AF_412312	49	Er feuerte ihn	11	219220	keine	0	10	14	3	-2,111111111	2,111111111	4,875	6,636363636	3,555555556	4,003443973	2,75	5,8	miss
222,249	2	12AF_412312	50	Er wird freundlich aufgenommen	66	222249	keine	0	167	30	4	1,833333333	1,833333333	4,545454546	4,636363636	3,333333333	999	999	999	miss
225,282	2	12AF_412312	51	Sie versteht was er meint	55	225282	keine	0	149	25	5	0,666666667	0,666666667	3,454545455	5,545454546	3,25	999	999	999	miss
229,316	2	12AF_412312	52	## ### ### ### #########	77	229316	keine	0	205	24	5	9	9	9	9	9	9	9	9	miss
232,345	2	12AF_412312	53	### ##### ####### ### ### ### ######### #####	77	232345	keine	0	267	45	8	9	9	9	9	9	9	9	9	miss
237,379	2	12AF_412312	54	Hast du soeben eine Buchstabenreihe gelesen?	88	237379	Ja	3215	904	44	6	9	9	9	9	9	9	9	9	incorrect
243,425	2	12AF_412312	55	Mir fŠllt ein Stein vom Herzen	33	243425	keine	0	75	30	6	1,777777778	1,777777778	5,125	6,2	2,909090909	4,029881943	5,75	7	miss
249,453	2	12AF_412312	56	Es ist nicht so schwierig	55	249453	keine	0	145	25	5	0,5	0,5	3,727272727	4,727272727	2,083333333	999	999	999	miss
252,488	2	12AF_412312	57	### ###### ##### ######## #########	77	252488	keine	0	263	35	5	9	9	9	9	9	9	9	9	miss
256,521	2	12AF_412312	58	### ##### ##### ### ### ## ######	77	256521	keine	0	219	33	7	9	9	9	9	9	9	9	9	miss
262,55	2	12AF_412312	59	Er bringt sie zur Wei§glut	11	262550	keine	0	16	26	5	-1,888888889	1,888888889	5,75	5,8	2,666666667	3,780924393	3,571428571	7	miss
266,584	2	12AF_412312	60	Er ist darauf neutral	55	266584	keine	0	133	21	4	0,090909091	0,090909091	2,5	3,1	2	999	999	999	miss
269,612	2	12AF_412312	61	Hat er etwas dagegen?	88	269612	keine	0	905	21	4	9	9	9	9	9	9	9	9	miss
276,652	2	12AF_412312	62	### #### #### ### ######	77	276652	keine	0	193	24	5	9	9	9	9	9	9	9	9	miss
281,692	2	12AF_412312	63	Das war eine schšne Erinnerung	66	281692	keine	0	166	30	5	1,75	1,75	5	5,363636364	2,166666667	999	999	999	miss
288,732	2	12AF_412312	64	Sie beschŠftigt sich mit dem Thema	55	288732	keine	0	142	34	6	0,333333333	0,333333333	3,1	5,727272727	2,666666667	999	999	999	miss
292,761	2	12AF_412312	65	Er hegt einen Traum	33	292761	keine	0	77	19	4	1,888888889	1,888888889	3,75	4,090909091	2,545454546	3,856068786	4,625	7	miss
296,79	2	12AF_412312	66	Sie spuckte Gift und Galle	11	296790	keine	0	19	26	5	-1,888888889	1,888888889	5,375	3,9	3,625	3,736640956	4,125	6	miss
304,818	2	12AF_412312	67	####### ### ###### ######### ##### ####	77	304818	keine	0	183	39	6	9	9	9	9	9	9	9	9	miss
307,858	2	12AF_412312	68	Sie lacht aus vollem Hals	33	307858	keine	0	67	25	5	1,555555556	1,555555556	5,25	4,1	4,727272727	4,005689941	4,555555556	6,142857143	miss
310,892	2	12AF_412312	69	### ##### #### ##### ####	77	310892	keine	0	243	25	5	9	9	9	9	9	9	9	9	miss
317,926	2	12AF_412312	70	Er hat seine Gelegenheit leider verpasst	44	317926	keine	0	114	40	6	-1,416666667	1,416666667	4,727272727	3,545454546	2,416666667	999	999	999	miss
320,955	2	12AF_412312	71	Er trŠumt in den Tag hinein	22	320955	keine	0	38	27	6	-0,111111111	0,111111111	3,5	4,8	2,090909091	3,727815594	5,333333333	4,75	miss
323,99	2	12AF_412312	72	### ####### #### ### ### ######## ### #########	77	323990	keine	0	206	47	8	9	9	9	9	9	9	9	9	miss
327,023	2	12AF_412312	73	### #### ## ### #####	77	327023	keine	0	202	21	5	9	9	9	9	9	9	9	9	miss
332,056	2	12AF_412312	74	Sie baut Luftschlšsser	22	332056	keine	0	37	22	3	-0,125	0,125	3,75	4,1	2,181818182	3,684456299	5,375	7	miss
337,097	2	12AF_412312	75	Das ist eine traurige Geschichte	44	337097	keine	0	108	32	5	-1,833333333	1,833333333	5,181818182	4,727272727	2,5	999	999	999	miss
341,136	2	12AF_412312	76	Ist die Geschichte witzig?	88	341136	Nein	1870	906	26	4	9	9	9	9	9	9	9	9	correct
346,171	2	12AF_412312	77	Es steht noch in den Sternen	22	346171	keine	0	52	28	6	0,25	0,25	2,375	4,818181818	2,090909091	3,644557397	3,5	6,571428571	miss
350,205	2	12AF_412312	78	Er merkt wie sich die Sachen entwickeln	55	350205	keine	0	147	39	7	0,583333333	0,583333333	3,7	4,636363636	2,5	999	999	999	miss
355,233	2	12AF_412312	79	Sie hat lange darunter gelitten	44	355233	keine	0	96	31	5	-2,333333333	2,333333333	5,636363636	5,090909091	2,5	999	999	999	miss
358,273	2	12AF_412312	80	Sie lassen Gras Ÿber die Sache wachsen	22	358273	keine	0	45	38	7	0	0	2,75	4,909090909	2,454545455	3,805733947	4,5	7	miss
366,307	2	12AF_412312	81	#### ### ########## #########	77	366307	keine	0	252	29	4	9	9	9	9	9	9	9	9	miss
373,347	2	12AF_412312	82	Hast du soeben viele Rautezeichen gesehen?	88	373347	Ja	2322	907	42	6	9	9	9	9	9	9	9	9	correct
378,382	2	12AF_412312	83	Er platzt vor Neid	11	378382	keine	0	18	18	4	-1,888888889	1,888888889	4,375	5,272727273	3,090909091	3,976193063	5,777777778	6	miss
382,415	2	12AF_412312	84	Sie geht an die Decke	11	382415	keine	0	23	21	5	-1,777777778	1,777777778	5,25	5,8	2,9	3,877562694	3,375	7	miss
387,444	2	12AF_412312	85	## ###### ###############	77	387444	keine	0	262	25	3	9	9	9	9	9	9	9	9	miss
392,485	2	12AF_412312	86	### ##### ##### ##### ##### #### ### ##### ######	77	392485	keine	0	207	49	9	9	9	9	9	9	9	9	9	miss
395,524	2	12AF_412312	87	Sie genie§t ihre Freizeit	66	395524	keine	0	164	25	4	1,666666667	1,666666667	5,090909091	5,909090909	2,916666667	999	999	999	miss
399,558	2	12AF_412312	88	#### ###### ###### #######	77	399558	keine	0	256	26	4	9	9	9	9	9	9	9	9	miss
405,585	2	12AF_412312	89	Sie wŠgt ihre Worte ab	22	405585	keine	0	43	22	5	0	0	1,875	5,272727273	2,818181818	3,743860744	5,428571429	7	miss
409,621	2	12AF_412312	90	Er hat einen an der Birne	11	409621	keine	0	15	25	6	-1,888888889	1,888888889	3	4,222222222	2,6	3,274074074	2,285714286	5	miss
414,649	2	12AF_412312	91	Sie ist davon verwirrt	44	414649	keine	0	116	22	4	-1,166666667	1,166666667	4,363636364	5,545454546	2,666666667	999	999	999	miss
418,689	2	12AF_412312	92	### ##### ### #### #######	77	418689	keine	0	201	26	5	9	9	9	9	9	9	9	9	miss
425,717	2	12AF_412312	93	## #### #### #####	77	425717	keine	0	259	18	4	9	9	9	9	9	9	9	9	miss
428,747	2	12AF_412312	94	### ### ######### ### #####	77	428747	keine	0	249	27	5	9	9	9	9	9	9	9	9	miss
434,781	2	12AF_412312	95	Wurden dir soeben Rautezeichen prŠsentiert?	88	434781	Ja	1984	908	43	5	9	9	9	9	9	9	9	9	correct
442,821	2	12AF_412312	96	### #### ### ##### ######## ##	77	442821	keine	0	253	30	6	9	9	9	9	9	9	9	9	miss
445,855	2	12AF_412312	97	#### ##### #### #####	77	445855	keine	0	184	21	4	9	9	9	9	9	9	9	9	miss
448,889	2	12AF_412312	98	Er ist ein anstrengender Mensch	44	448889	keine	0	111	31	5	-1,75	1,75	5	5,454545455	2,75	999	999	999	miss
451,923	2	12AF_412312	99	Sie denkt Ÿber die Vor- und Nachteile nach	55	451923	keine	0	134	42	8	0,166666667	0,166666667	3,4	4,818181818	2,416666667	999	999	999	miss
459,957	2	12AF_412312	100	### ### ## ### ##### ###### #####	77	459957	keine	0	224	33	7	9	9	9	9	9	9	9	9	miss
