onset	duration	Experiment - R1AVersuchsperson	Serial_no	Stimulus	Condition	Onset_time	response	response_time	ID_Code	String_length	Word_Number	Valence	Abs_Valence	Arousal	Familiarity	Concreteness	Idiomaticity	Sem_Transp	Knowledge	Accuracy
1,619	2	24AD_lo34194	1	Sie hat etwas vor	99	1619	keine	0	271	17	4	9	9	9	9	9	9	9	9	miss
4,653	2	24AD_lo34194	2	Er mag keine Suppe	99	4653	keine	0	272	18	4	9	9	9	9	9	9	9	9	miss
7,687	2	24AD_lo34194	3	Sie holt für ihn die Sterne vom Himmel	33	7687	keine	0	84	38	8	2,125	2,125	4,375	5,7	2,454545455	3,838892776	5,25	7	miss
12,72	2	24AD_lo34194	4	## ####### ##### #####	77	12720	keine	0	212	22	4	9	9	9	9	9	9	9	9	miss
18,761	2	24AD_lo34194	5	Er prügelte ihm die Seele aus dem Leib	11	18761	keine	0	1	38	8	-2,777777778	2,777777778	6	4,2	4,454545455	4,884848485	5,75	7	miss
24,795	2	24AD_lo34194	6	Er geht kaum noch aus dem Haus	44	24795	keine	0	118	30	7	-1	1	4,090909091	5,181818182	4,583333333	999	999	999	miss
29,829	2	24AD_lo34194	7	Mir fällt ein Stein vom Herzen	33	29829	keine	0	75	30	6	1,777777778	1,777777778	5,125	6,2	2,909090909	4,029881943	5,75	7	miss
32,869	2	24AD_lo34194	8	Bin ich erleichtert?	88	32869	Ja	2524	901	20	3	9	9	9	9	9	9	9	9	correct
37,909	2	24AD_lo34194	9	Er kriegte eine Gänsehaut	22	37909	keine	0	31	25	4	-0,444444444	0,444444444	5,125	6,636363636	5,181818182	4,330756317	4,142857143	7	miss
40,942	2	24AD_lo34194	10	### #### ########	77	40942	keine	0	185	17	3	9	9	9	9	9	9	9	9	miss
43,976	2	24AD_lo34194	11	Sie stinkt vor Faulheit	11	43976	keine	0	4	23	4	-2,222222222	2,222222222	3,75	3,9	4,272727273	3,927592	4,666666667	5,5	miss
48,009	2	24AD_lo34194	12	### #### ##### ######## #### ###	77	48009	keine	0	186	32	6	9	9	9	9	9	9	9	9	miss
51,038	2	24AD_lo34194	13	Ihm ist Übel geworden	44	51038	keine	0	104	21	4	-1,916666667	1,916666667	4,727272727	4,636363636	4,75	999	999	999	miss
58,072	2	24AD_lo34194	14	Er führt Böses im Schilde	11	58072	keine	0	8	25	5	-2,111111111	2,111111111	4	5,545454546	2,363636364	3,920169782	4,222222222	6,4	miss
63,101	2	24AD_lo34194	15	### ####### ##### #######	77	63101	keine	0	234	25	4	9	9	9	9	9	9	9	9	miss
67,141	2	24AD_lo34194	16	Er lässt sein Herz sprechen	33	67141	keine	0	65	27	5	1,444444444	1,444444444	4,125	4	3,090909091	3,875012971	5,333333333	7	miss
73,17	2	24AD_lo34194	17	Sie machen heute ein Picknick am Strand	66	73170	keine	0	177	39	7	2,166666667	2,166666667	4,363636364	4,636363636	5,5	999	999	999	miss
76,204	2	24AD_lo34194	18	Sie ist Überarbeitet	44	76204	keine	0	110	20	3	-1,75	1,75	5,090909091	5,090909091	3	999	999	999	miss
79,237	2	24AD_lo34194	19	Er ist bekannt wie ein bunter Hund	22	79237	keine	0	57	34	7	0,444444444	0,444444444	2,75	5,1	2,888888889	3,59094947	3,714285714	4,75	miss
84,271	2	24AD_lo34194	20	Sie ist nun ruhig	55	84271	keine	0	146	17	4	0,583333333	0,583333333	4	4,636363636	3,5	999	999	999	miss
91,311	2	24AD_lo34194	21	Springt sie wild herum?	88	91311	Nein	1819	902	23	4	9	9	9	9	9	9	9	9	correct
96,347	2	24AD_lo34194	22	## ### #### ###### ### ### ########## ##	77	96347	keine	0	250	40	7	9	9	9	9	9	9	9	9	miss
100,38	2	24AD_lo34194	23	Er nimmt es sich zu Herzen	22	100380	keine	0	34	26	6	-0,222222222	0,222222222	4,875	6,181818182	2,818181818	4,078186904	4,222222222	7	miss
103,409	2	24AD_lo34194	24	Sie ist überglücklich deswegen	66	103409	keine	0	180	30	4	2,666666667	2,666666667	6,454545455	4,818181818	2,416666667	999	999	999	miss
106,443	2	24AD_lo34194	25	### ### ######### ### #####	77	106443	keine	0	249	27	5	9	9	9	9	9	9	9	9	miss
110,476	2	24AD_lo34194	26	Sie ist unfähig	44	110476	keine	0	106	15	3	-1,833333333	1,833333333	5,272727273	4	2,25	999	999	999	miss
114,505	2	24AD_lo34194	27	Sie erzählt was passiert ist	55	114505	keine	0	130	28	5	0	0	3	5,727272727	4,916666667	999	999	999	miss
122,533	2	24AD_lo34194	28	## #### #### #######	77	122533	keine	0	220	20	4	9	9	9	9	9	9	9	9	miss
125,574	2	24AD_lo34194	29	Er redete mit Engelszungen	33	125574	keine	0	61	26	4	1,125	1,125	3,625	3,6	4,090909091	3,771969697	4,625	4,75	miss
129,608	2	24AD_lo34194	30	##### ##### ## ####### #### ########## ### ########	77	129608	keine	0	230	51	8	9	9	9	9	9	9	9	9	miss
132,635	2	24AD_lo34194	31	## ##### ## #### ### #####	77	132635	keine	0	228	26	6	9	9	9	9	9	9	9	9	miss
138,67	2	24AD_lo34194	32	Er grinst wie ein Honigkuchenpferd	33	138670	keine	0	73	34	5	1,666666667	1,666666667	3,875	4,545454546	4,545454546	4,048617879	3	7	miss
142,703	2	24AD_lo34194	33	Sie lag erschöpft im Bett	44	142703	keine	0	119	25	5	-0,833333333	0,833333333	4,636363636	5,454545455	5	999	999	999	miss
146,733	2	24AD_lo34194	34	Sie macht ihr die Hölle hei§	11	146733	keine	0	27	28	6	-1,666666667	1,666666667	5,125	5,272727273	3,909090909	4,086060651	5,111111111	7	miss
152,761	2	24AD_lo34194	35	Er grinst Über beide Ohren	33	152761	keine	0	85	26	5	2,142857143	2,142857143	5	5,333333333	4,818181818	5,050505051	6,222222222	7	miss
160,796	2	24AD_lo34194	36	#### ##### ##### ### ########	77	160796	keine	0	235	29	5	9	9	9	9	9	9	9	9	miss
163,835	2	24AD_lo34194	37	Hast du soeben einen Satz gelesen?	88	163835	keine	0	903	34	6	9	9	9	9	9	9	9	9	miss
168,876	2	24AD_lo34194	38	#### ### ##### #### ####	77	168876	keine	0	231	24	5	9	9	9	9	9	9	9	9	miss
171,91	2	24AD_lo34194	39	Sie macht sich Sorgen um ihre Zukunft	44	171910	keine	0	101	37	7	-2,083333333	2,083333333	5,454545455	5,363636364	2,75	999	999	999	miss
177,927	2	24AD_lo34194	40	Er freundet sich mit ihm an	66	177927	keine	0	165	27	6	1,666666667	1,666666667	4,272727273	4,909090909	3,583333333	999	999	999	miss
181,961	2	24AD_lo34194	41	### ##### ##### ## ### ###### ####	77	181961	keine	0	209	34	7	9	9	9	9	9	9	9	9	miss
184,99	2	24AD_lo34194	42	Er kann das nicht mehr leiden	44	184990	keine	0	115	29	6	-1,25	1,25	4,6	4,454545455	2,416666667	999	999	999	miss
188,023	2	24AD_lo34194	43	Mag er das immernoch gerne?	88	188023	Nein	1852	904	27	5	9	9	9	9	9	9	9	9	correct
194,063	2	24AD_lo34194	44	## ##### ### ### ###### ### ######	77	194063	keine	0	225	34	7	9	9	9	9	9	9	9	9	miss
200,092	2	24AD_lo34194	45	Er merkt wie sich die Sachen entwickeln	55	200092	keine	0	147	39	7	0,583333333	0,583333333	3,7	4,636363636	2,5	999	999	999	miss
203,126	2	24AD_lo34194	46	Ist ihm die Entwicklung aufgefallen?	88	203126	Ja	2091	905	36	5	9	9	9	9	9	9	9	9	correct
209,166	2	24AD_lo34194	47	#### ###### ###### #######	77	209166	keine	0	256	26	4	9	9	9	9	9	9	9	9	miss
213,194	2	24AD_lo34194	48	Sie redet nicht um den heißen Brei	22	213194	keine	0	33	34	7	-0,222222222	0,222222222	3,285714286	5,272727273	3,777777778	3,812515985	2,875	6,5	miss
216,223	2	24AD_lo34194	49	Sie holt sich den Tod	11	216223	keine	0	11	21	5	-2,111111111	2,111111111	4	5,545454546	2,545454546	3,908683056	5,142857143	7	miss
224,257	2	24AD_lo34194	50	Es ist Jacke wie Hose	22	224257	keine	0	46	21	5	0,111111111	0,111111111	5,125	5,4	1,818181818	3,840995304	2,375	6,4	miss
228,297	2	24AD_lo34194	51	Er hegt einen Traum	33	228297	keine	0	77	19	4	1,888888889	1,888888889	3,75	4,090909091	2,545454546	3,856068786	4,625	7	miss
232,326	2	24AD_lo34194	52	Sie denkt über die Vor- und Nachteile nach	55	232326	keine	0	134	42	8	0,166666667	0,166666667	3,4	4,818181818	2,416666667	999	999	999	miss
240,355	2	24AD_lo34194	53	Er benimmt sich wie ein Elefant im Porzellanladen	11	240355	keine	0	28	49	8	-1,666666667	1,666666667	4,125	5,4	3,363636364	4,014075192	5,714285714	7	miss
243,394	2	24AD_lo34194	54	## ##### ### ### #####	77	243394	keine	0	222	22	5	9	9	9	9	9	9	9	9	miss
250,428	2	24AD_lo34194	55	## ##### ##### ##### ######	77	250428	keine	0	188	27	5	9	9	9	9	9	9	9	9	miss
253,457	2	24AD_lo34194	56	Sie bricht ihm das Herz	11	253457	keine	0	7	23	5	-2,222222222	2,222222222	5,5	6,3	2,909090909	4,041178878	5	7	miss
257,491	2	24AD_lo34194	57	Sie hat die Weisheit mit Löffeln gefressen	22	257491	keine	0	36	42	7	-0,222222222	0,222222222	3,5	5,2	3,090909091	3,947541587	4,625	7	miss
261,52	2	24AD_lo34194	58	### ##### ##### ##### ##### #### ### ##### ######	77	261520	keine	0	207	49	9	9	9	9	9	9	9	9	9	miss
264,548	2	24AD_lo34194	59	Er schwimmt im Geld	33	264548	keine	0	62	19	4	1,222222222	1,222222222	3	5,1	3,25	3,557714631	5,888888889	7	miss
267,582	2	24AD_lo34194	60	Sie freut sich auf den Urlaub	66	267582	keine	0	173	29	6	1,916666667	1,916666667	5	5,636363636	2,916666667	999	999	999	miss
272,616	2	24AD_lo34194	61	##### ##### ##### ##### #### ####	77	272616	keine	0	189	33	6	9	9	9	9	9	9	9	9	miss
275,655	2	24AD_lo34194	62	### ### ########## ##########	77	275655	keine	0	257	29	4	9	9	9	9	9	9	9	9	miss
278,688	2	24AD_lo34194	63	Er fühlt sich entspannt und locker	66	278688	keine	0	162	34	6	1,583333333	1,583333333	4,090909091	4,818181818	3,416666667	999	999	999	miss
282,723	2	24AD_lo34194	64	Sie fühlt sich sorglos	66	282723	keine	0	158	22	4	1,416666667	1,416666667	4,454545455	4,636363636	2,083333333	999	999	999	miss
287,751	2	24AD_lo34194	65	Ist sie unbeschwert?	88	287751	Ja	1519	906	20	3	9	9	9	9	9	9	9	9	correct
293,797	2	24AD_lo34194	66	Es wurde heute aufgeräumt	55	293797	keine	0	143	25	4	0,333333333	0,333333333	2,909090909	3,818181818	4,833333333	999	999	999	miss
300,825	2	24AD_lo34194	67	### ##### #### ##### ##### ## #####	77	300825	keine	0	210	35	7	9	9	9	9	9	9	9	9	miss
304,855	2	24AD_lo34194	68	#### ### ########## #########	77	304855	keine	0	252	29	4	9	9	9	9	9	9	9	9	miss
307,883	2	24AD_lo34194	69	## ### ##### ######	77	307883	keine	0	261	19	4	9	9	9	9	9	9	9	9	miss
312,917	2	24AD_lo34194	70	Es macht keinen Unterschied für ihn	55	312917	keine	0	124	35	6	-0,090909091	0,090909091	3	5,181818182	2	999	999	999	miss
316,957	2	24AD_lo34194	71	Sie eroberte sein Herz	33	316957	keine	0	80	22	4	2	2	5,125	5,545454546	2,4	3,894545162	5,777777778	6,4	miss
320,985	2	24AD_lo34194	72	Er wird freundlich aufgenommen	66	320985	keine	0	167	30	4	1,833333333	1,833333333	4,545454546	4,636363636	3,333333333	999	999	999	miss
324,014	2	24AD_lo34194	73	Sie lacht über den Scherz	66	324014	keine	0	161	25	5	1,583333333	1,583333333	4,454545455	4,454545455	5	999	999	999	miss
328,048	2	24AD_lo34194	74	Das ist eine traurige Geschichte	44	328048	keine	0	108	32	5	-1,833333333	1,833333333	5,181818182	4,727272727	2,5	999	999	999	miss
332,076	2	24AD_lo34194	75	#### #### ### ##### ### #####	77	332076	keine	0	229	29	6	9	9	9	9	9	9	9	9	miss
337,105	2	24AD_lo34194	76	Er fällt durch die Abschlussprüfung	44	337105	keine	0	95	35	5	-2,5	2,5	5,454545455	3,454545455	3,833333333	999	999	999	miss
344,143	2	24AD_lo34194	77	Es ist in aller Munde	22	344143	keine	0	55	21	5	0,333333333	0,333333333	3,25	5,4	2,888888889	3,696579703	4,75	7	miss
349,174	2	24AD_lo34194	78	## ### ##### ############	77	349174	keine	0	194	25	4	9	9	9	9	9	9	9	9	miss
352,213	2	24AD_lo34194	79	Er hat bei ihm verspielt	11	352213	keine	0	25	24	5	-1,777777778	1,777777778	4,375	4,818181818	2,363636364	3,915117004	4	7	miss
355,247	2	24AD_lo34194	80	#### ## ### ##### #####	77	355247	keine	0	197	23	5	9	9	9	9	9	9	9	9	miss
358,281	2	24AD_lo34194	81	Hast du soeben viele Dreiecke gesehen?	88	358281	Nein	2159	907	38	6	9	9	9	9	9	9	9	9	correct
364,32	2	24AD_lo34194	82	Er leidet unter der Trennung seiner Eltern	44	364320	keine	0	99	42	7	-2,166666667	2,166666667	5,636363636	4,727272727	3,083333333	999	999	999	miss
370,349	2	24AD_lo34194	83	Ihr läuft die Galle über	11	370349	keine	0	13	24	5	-2	2	4,285714286	3,333333333	3,454545455	3,691197691	3,125	3,625	miss
374,384	2	24AD_lo34194	84	Es ist nicht so schwierig	55	374384	keine	0	145	25	5	0,5	0,5	3,727272727	4,727272727	2,083333333	999	999	999	miss
381,411	2	24AD_lo34194	85	Er spitzte die Ohren	22	381411	keine	0	59	20	4	0,444444444	0,444444444	3,625	5,5	5,181818182	4,096573349	4	7	miss
389,441	2	24AD_lo34194	86	## ##### ###### ##### #####	77	389441	keine	0	270	28	5	9	9	9	9	9	9	9	9	miss
392,481	2	24AD_lo34194	87	## ## ##########	77	392481	keine	0	239	16	3	9	9	9	9	9	9	9	9	miss
395,515	2	24AD_lo34194	88	Er plaudert aus dem Nähkästchen	22	395515	keine	0	35	31	5	-0,222222222	0,222222222	2,875	4,818181818	3,909090909	4,004474986	2,5	7	miss
399,549	2	24AD_lo34194	89	Sie beschäftigt sich mit dem Thema	55	399549	keine	0	142	34	6	0,333333333	0,333333333	3,1	5,727272727	2,666666667	999	999	999	miss
404,577	2	24AD_lo34194	90	### #### ####### ##	77	404577	keine	0	241	19	4	9	9	9	9	9	9	9	9	miss
410,616	2	24AD_lo34194	91	Er denkt jetzt daran	55	410616	keine	0	127	20	4	0	0	2,9	5,3	2,333333333	999	999	999	miss
414,651	2	24AD_lo34194	92	Er ist über alle Berge	22	414651	keine	0	32	22	5	-0,222222222	0,222222222	3,25	5,636363636	2,272727273	3,915657047	3,875	7	miss
422,681	2	24AD_lo34194	93	Die Beschreibung des Projektes ist jetzt verfügbar	55	422681	keine	0	136	50	7	0,166666667	0,166666667	2,4	3,909090909	4,166666667	999	999	999	miss
425,72	2	24AD_lo34194	94	Sie schläft gut	66	425720	keine	0	168	15	3	1,833333333	1,833333333	4,454545455	5,272727273	4,916666667	999	999	999	miss
430,754	2	24AD_lo34194	95	Hat sie einen gesunden Schlaf?	88	430754	Ja	2329	908	30	5	9	9	9	9	9	9	9	9	correct
436,8	2	24AD_lo34194	96	Sie ist fit wie ein Turnschuh	33	436800	keine	0	86	29	6	2,333333333	2,333333333	3,375	6,090909091	3,272727273	3,936479301	5,25	6,5	miss
440,829	2	24AD_lo34194	97	Er gewinnt neues Selbstvertrauen	66	440829	keine	0	169	32	4	1,833333333	1,833333333	5,272727273	4,363636364	2,583333333	999	999	999	miss
443,857	2	24AD_lo34194	98	### ##### ### ####### ####	77	443857	keine	0	226	26	5	9	9	9	9	9	9	9	9	miss
449,891	2	24AD_lo34194	99	Sie schwitzte Blut und Wasser	11	449891	keine	0	30	29	5	-1,111111111	1,111111111	4,142857143	4,8	4	4,314285714	4	5	miss
453,925	2	24AD_lo34194	100	#### ###### ####### #########	77	453925	keine	0	251	29	4	9	9	9	9	9	9	9	9	miss
