onset	duration	Experiment - R4DVersuchsperson	Serial_no	Stimulus	Condition	Onset_time	response	response_time	ID_Code	String_length	Word_Number	Valence	Abs_Valence	Arousal	Familiarity	Concreteness	Idiomaticity	Sem_Transp	Knowledge	Accuracy
1,629	2	08Aw_4111	1	Sie ist sehr konzentriert	99	1629	keine	0	276	25	4	9	9	9	9	9	9	9	9	miss
4,663	2	08Aw_4111	2	Es hat viel damit zu tun	99	4663	keine	0	273	24	6	9	9	9	9	9	9	9	9	miss
7,697	2	08Aw_4111	3	Sie verbrachten ein entspanntes Wochenende	66	7697	keine	0	172	42	5	1,916666667	1,916666667	4,909090909	5,636363636	3,333333333	999	999	999	miss
10,73	2	08Aw_4111	4	Er schŸttet ihr sein Herz aus	22	10730	keine	0	51	29	6	0,222222222	0,222222222	4,625	5,909090909	2,888888889	3,851628559	5,444444444	7	miss
13,764	2	08Aw_4111	5	Sie wird herzlich begrŸ§t	66	13764	keine	0	171	25	4	1,916666667	1,916666667	5,454545455	5,545454546	4,916666667	999	999	999	miss
18,798	2	08Aw_4111	6	Sie schaffen das ganz gut	66	18798	keine	0	151	25	5	1,083333333	1,083333333	4,363636364	5,454545455	2,333333333	999	999	999	miss
24,838	2	08Aw_4111	7	### ### ########## ##########	77	24838	keine	0	257	29	4	9	9	9	9	9	9	9	9	miss
28,872	2	08Aw_4111	8	### ### ##### ### #### #####	77	28872	keine	0	203	28	6	9	9	9	9	9	9	9	9	miss
32,901	2	08Aw_4111	9	#### ###### ####### #####	77	32901	keine	0	191	25	4	9	9	9	9	9	9	9	9	miss
37,929	2	08Aw_4111	10	Er genie§t die Gesellschaft	66	37929	keine	0	176	27	4	2	2	5	5,181818182	3,333333333	999	999	999	miss
41,969	2	08Aw_4111	11	Er gewinnt neues Selbstvertrauen	66	41969	keine	0	169	32	4	1,833333333	1,833333333	5,272727273	4,363636364	2,583333333	999	999	999	miss
45,998	2	08Aw_4111	12	Es passt wie die Faust aufs Auge	33	45998	keine	0	68	32	7	1,666666667	1,666666667	3	5,9	2,9	3,753424585	4	7	miss
49,026	2	08Aw_4111	13	Passt es sehr gut zusammen?	88	49026	Ja	2257	901	27	5	9	9	9	9	9	9	9	9	correct
55,066	2	08Aw_4111	14	### #### ##### ######## #### ###	77	55066	keine	0	186	32	6	9	9	9	9	9	9	9	9	miss
61,094	2	08Aw_4111	15	Er freundet sich mit ihm an	66	61094	keine	0	165	27	6	1,666666667	1,666666667	4,272727273	4,909090909	3,583333333	999	999	999	miss
64,129	2	08Aw_4111	16	## ##### ### #####	77	64129	keine	0	198	18	4	9	9	9	9	9	9	9	9	miss
67,163	2	08Aw_4111	17	Sie hat einen Schnupfen	44	67163	keine	0	112	23	4	-1,75	1,75	3,545454546	4,545454546	5,333333333	999	999	999	miss
71,196	2	08Aw_4111	18	LŠuft ihre Nase?	88	71196	Ja	1540	902	16	3	9	9	9	9	9	9	9	9	correct
78,23	2	08Aw_4111	19	Er schreibt seine Gedanken auf	55	78230	keine	0	137	30	5	0,166666667	0,166666667	3,6	4,454545455	4,5	999	999	999	miss
85,27	2	08Aw_4111	20	Er hat Schmetterlinge im Bauch	33	85270	keine	0	87	30	5	2,375	2,375	4,75	6	3,363636364	4,064976457	3,375	7	miss
91,3	2	08Aw_4111	21	Er plaudert aus dem NŠhkŠstchen	22	91300	keine	0	35	31	5	-0,222222222	0,222222222	2,875	4,818181818	3,909090909	4,004474986	2,5	7	miss
94,335	2	08Aw_4111	22	Er geht kaum noch aus dem Haus	44	94335	keine	0	118	30	7	-1	1	4,090909091	5,181818182	4,583333333	999	999	999	miss
98,368	2	08Aw_4111	23	Sie redet nicht um den hei§en Brei	22	98368	keine	0	33	34	7	-0,222222222	0,222222222	3,285714286	5,272727273	3,777777778	3,812515985	2,875	6,5	miss
103,397	2	08Aw_4111	24	Sie legt nicht jedes Wort auf die Goldwaage	22	103397	keine	0	41	43	8	-0,111111111	0,111111111	3,5	5,3	2,1	3,691932371	5,428571429	6,25	miss
108,437	2	08Aw_4111	25	Er ist Feuer und Flamme	33	108437	keine	0	82	23	5	2,111111111	2,111111111	4,285714286	5,7	3,272727273	3,844404201	3,125	7	miss
111,476	2	08Aw_4111	26	Er hat einen guten Draht zu ihm	33	111476	keine	0	79	31	7	2	2	3,5	6,272727273	2	3,794818339	5	7	miss
117,51	2	08Aw_4111	27	Sie ist unsterblich verliebt	33	117510	keine	0	78	28	4	1,888888889	1,888888889	5	6,1	2,363636364	3,974284916	5,111111111	6,625	miss
124,545	2	08Aw_4111	28	Er benimmt sich wie ein Elefant im Porzellanladen	11	124545	keine	0	28	49	8	-1,666666667	1,666666667	4,125	5,4	3,363636364	4,014075192	5,714285714	7	miss
129,574	2	08Aw_4111	29	Er ist wŸtend auf sie	44	129574	keine	0	103	21	5	-2	2	5,727272727	5,272727273	3,583333333	999	999	999	miss
137,614	2	08Aw_4111	30	Sie strukturiert ihre Arbeit	55	137614	keine	0	150	28	4	0,833333333	0,833333333	2,909090909	4,636363636	4	999	999	999	miss
141,654	2	08Aw_4111	31	Er lŠsst kein gutes Haar daran	11	141654	keine	0	26	30	6	-1,75	1,75	3,625	5,222222222	2	3,634250914	3,888888889	7	miss
144,682	2	08Aw_4111	32	Sie ist die Ehrlichkeit in Person	33	144682	keine	0	83	33	6	2,111111111	2,111111111	3,375	5	2,272727273	3,861333287	5,875	7	miss
148,717	2	08Aw_4111	33	## ######## ##### #####	77	148717	keine	0	264	23	4	9	9	9	9	9	9	9	9	miss
151,745	2	08Aw_4111	34	Er fŸhrt Bšses im Schilde	11	151745	keine	0	8	25	5	-2,111111111	2,111111111	4	5,545454546	2,363636364	3,920169782	4,222222222	6,4	miss
158,779	2	08Aw_4111	35	### ### ##### ######## ###########	77	158779	keine	0	244	34	5	9	9	9	9	9	9	9	9	miss
161,807	2	08Aw_4111	36	Sie ist nun ruhig	55	161807	keine	0	146	17	4	0,583333333	0,583333333	4	4,636363636	3,5	999	999	999	miss
167,842	2	08Aw_4111	37	Er lŠsst sich deswegen keine grauen Haare wachsen	22	167842	keine	0	54	49	8	0,333333333	0,333333333	2,5	3,8	3,636363636	3,711672241	3,571428571	6,8	miss
170,876	2	08Aw_4111	38	##### ##### ##### ##### #### ####	77	170876	keine	0	189	33	6	9	9	9	9	9	9	9	9	miss
174,91	2	08Aw_4111	39	Er fŸhlt sich nicht wohl	44	174910	keine	0	107	24	5	-1,833333333	1,833333333	4,727272727	5,181818182	2,75	999	999	999	miss
177,939	2	08Aw_4111	40	### ### ##### #########	77	177939	keine	0	227	23	4	9	9	9	9	9	9	9	9	miss
184,972	2	08Aw_4111	41	Ihr lŠuft die Galle Ÿber	11	184972	keine	0	13	24	5	-2	2	4,285714286	3,333333333	3,454545455	3,691197691	3,125	3,625	miss
189,002	2	08Aw_4111	42	### ##### ### ##### ####	77	189002	keine	0	195	24	5	9	9	9	9	9	9	9	9	miss
193,03	2	08Aw_4111	43	Er fŠllt durch die AbschlussprŸfung	44	193030	keine	0	95	35	5	-2,5	2,5	5,454545455	3,454545455	3,833333333	999	999	999	miss
196,059	2	08Aw_4111	44	Er folgt der Stimme seines Herzens	33	196059	keine	0	81	34	6	2	2	4,142857143	5,2	2,818181818	3,821729672	5,111111111	7	miss
200,093	2	08Aw_4111	45	#### #### ### ##### ### #####	77	200093	keine	0	229	29	6	9	9	9	9	9	9	9	9	miss
206,121	2	08Aw_4111	46	Wurden dir soeben kleine Kreise gezeigt?	88	206121	Nein	3020	903	40	6	9	9	9	9	9	9	9	9	correct
211,162	2	08Aw_4111	47	Es macht keinen Unterschied fŸr ihn	55	211162	keine	0	124	35	6	-0,090909091	0,090909091	3	5,181818182	2	999	999	999	miss
215,195	2	08Aw_4111	48	Sie verwirklicht nun ihren Wunsch	66	215195	keine	0	178	33	5	2,166666667	2,166666667	5,363636364	4	2,333333333	999	999	999	miss
219,223	2	08Aw_4111	49	Er feuerte ihn	11	219223	keine	0	10	14	3	-2,111111111	2,111111111	4,875	6,636363636	3,555555556	4,003443973	2,75	5,8	miss
222,252	2	08Aw_4111	50	Er wird freundlich aufgenommen	66	222252	keine	0	167	30	4	1,833333333	1,833333333	4,545454546	4,636363636	3,333333333	999	999	999	miss
225,286	2	08Aw_4111	51	Sie versteht was er meint	55	225286	keine	0	149	25	5	0,666666667	0,666666667	3,454545455	5,545454546	3,25	999	999	999	miss
229,32	2	08Aw_4111	52	## ### ### ### #########	77	229320	keine	0	205	24	5	9	9	9	9	9	9	9	9	miss
232,349	2	08Aw_4111	53	### ##### ####### ### ### ### ######### #####	77	232349	keine	0	267	45	8	9	9	9	9	9	9	9	9	miss
237,383	2	08Aw_4111	54	Hast du soeben eine Buchstabenreihe gelesen?	88	237383	Nein	2263	904	44	6	9	9	9	9	9	9	9	9	correct
243,428	2	08Aw_4111	55	Mir fŠllt ein Stein vom Herzen	33	243428	keine	0	75	30	6	1,777777778	1,777777778	5,125	6,2	2,909090909	4,029881943	5,75	7	miss
249,456	2	08Aw_4111	56	Es ist nicht so schwierig	55	249456	keine	0	145	25	5	0,5	0,5	3,727272727	4,727272727	2,083333333	999	999	999	miss
252,491	2	08Aw_4111	57	### ###### ##### ######## #########	77	252491	keine	0	263	35	5	9	9	9	9	9	9	9	9	miss
256,525	2	08Aw_4111	58	### ##### ##### ### ### ## ######	77	256525	keine	0	219	33	7	9	9	9	9	9	9	9	9	miss
262,553	2	08Aw_4111	59	Er bringt sie zur Wei§glut	11	262553	keine	0	16	26	5	-1,888888889	1,888888889	5,75	5,8	2,666666667	3,780924393	3,571428571	7	miss
266,588	2	08Aw_4111	60	Er ist darauf neutral	55	266588	keine	0	133	21	4	0,090909091	0,090909091	2,5	3,1	2	999	999	999	miss
269,616	2	08Aw_4111	61	Hat er etwas dagegen?	88	269616	Nein	1703	905	21	4	9	9	9	9	9	9	9	9	correct
276,656	2	08Aw_4111	62	### #### #### ### ######	77	276656	keine	0	193	24	5	9	9	9	9	9	9	9	9	miss
281,696	2	08Aw_4111	63	Das war eine schšne Erinnerung	66	281696	keine	0	166	30	5	1,75	1,75	5	5,363636364	2,166666667	999	999	999	miss
288,736	2	08Aw_4111	64	Sie beschŠftigt sich mit dem Thema	55	288736	keine	0	142	34	6	0,333333333	0,333333333	3,1	5,727272727	2,666666667	999	999	999	miss
292,765	2	08Aw_4111	65	Er hegt einen Traum	33	292765	keine	0	77	19	4	1,888888889	1,888888889	3,75	4,090909091	2,545454546	3,856068786	4,625	7	miss
296,794	2	08Aw_4111	66	Sie spuckte Gift und Galle	11	296794	keine	0	19	26	5	-1,888888889	1,888888889	5,375	3,9	3,625	3,736640956	4,125	6	miss
304,822	2	08Aw_4111	67	####### ### ###### ######### ##### ####	77	304822	keine	0	183	39	6	9	9	9	9	9	9	9	9	miss
307,862	2	08Aw_4111	68	Sie lacht aus vollem Hals	33	307862	keine	0	67	25	5	1,555555556	1,555555556	5,25	4,1	4,727272727	4,005689941	4,555555556	6,142857143	miss
310,896	2	08Aw_4111	69	### ##### #### ##### ####	77	310896	keine	0	243	25	5	9	9	9	9	9	9	9	9	miss
317,93	2	08Aw_4111	70	Er hat seine Gelegenheit leider verpasst	44	317930	keine	0	114	40	6	-1,416666667	1,416666667	4,727272727	3,545454546	2,416666667	999	999	999	miss
320,959	2	08Aw_4111	71	Er trŠumt in den Tag hinein	22	320959	keine	0	38	27	6	-0,111111111	0,111111111	3,5	4,8	2,090909091	3,727815594	5,333333333	4,75	miss
323,994	2	08Aw_4111	72	### ####### #### ### ### ######## ### #########	77	323994	keine	0	206	47	8	9	9	9	9	9	9	9	9	miss
327,027	2	08Aw_4111	73	### #### ## ### #####	77	327027	keine	0	202	21	5	9	9	9	9	9	9	9	9	miss
332,06	2	08Aw_4111	74	Sie baut Luftschlšsser	22	332060	keine	0	37	22	3	-0,125	0,125	3,75	4,1	2,181818182	3,684456299	5,375	7	miss
337,1	2	08Aw_4111	75	Das ist eine traurige Geschichte	44	337100	keine	0	108	32	5	-1,833333333	1,833333333	5,181818182	4,727272727	2,5	999	999	999	miss
341,14	2	08Aw_4111	76	Ist die Geschichte witzig?	88	341140	Nein	2304	906	26	4	9	9	9	9	9	9	9	9	correct
346,175	2	08Aw_4111	77	Es steht noch in den Sternen	22	346175	keine	0	52	28	6	0,25	0,25	2,375	4,818181818	2,090909091	3,644557397	3,5	6,571428571	miss
350,209	2	08Aw_4111	78	Er merkt wie sich die Sachen entwickeln	55	350209	keine	0	147	39	7	0,583333333	0,583333333	3,7	4,636363636	2,5	999	999	999	miss
355,237	2	08Aw_4111	79	Sie hat lange darunter gelitten	44	355237	keine	0	96	31	5	-2,333333333	2,333333333	5,636363636	5,090909091	2,5	999	999	999	miss
358,277	2	08Aw_4111	80	Sie lassen Gras Ÿber die Sache wachsen	22	358277	keine	0	45	38	7	0	0	2,75	4,909090909	2,454545455	3,805733947	4,5	7	miss
366,311	2	08Aw_4111	81	#### ### ########## #########	77	366311	keine	0	252	29	4	9	9	9	9	9	9	9	9	miss
373,352	2	08Aw_4111	82	Hast du soeben viele Rautezeichen gesehen?	88	373352	Ja	2188	907	42	6	9	9	9	9	9	9	9	9	correct
378,386	2	08Aw_4111	83	Er platzt vor Neid	11	378386	keine	0	18	18	4	-1,888888889	1,888888889	4,375	5,272727273	3,090909091	3,976193063	5,777777778	6	miss
382,419	2	08Aw_4111	84	Sie geht an die Decke	11	382419	keine	0	23	21	5	-1,777777778	1,777777778	5,25	5,8	2,9	3,877562694	3,375	7	miss
387,449	2	08Aw_4111	85	## ###### ###############	77	387449	keine	0	262	25	3	9	9	9	9	9	9	9	9	miss
392,489	2	08Aw_4111	86	### ##### ##### ##### ##### #### ### ##### ######	77	392489	keine	0	207	49	9	9	9	9	9	9	9	9	9	miss
395,528	2	08Aw_4111	87	Sie genie§t ihre Freizeit	66	395528	keine	0	164	25	4	1,666666667	1,666666667	5,090909091	5,909090909	2,916666667	999	999	999	miss
399,562	2	08Aw_4111	88	#### ###### ###### #######	77	399562	keine	0	256	26	4	9	9	9	9	9	9	9	9	miss
405,59	2	08Aw_4111	89	Sie wŠgt ihre Worte ab	22	405590	keine	0	43	22	5	0	0	1,875	5,272727273	2,818181818	3,743860744	5,428571429	7	miss
409,625	2	08Aw_4111	90	Er hat einen an der Birne	11	409625	keine	0	15	25	6	-1,888888889	1,888888889	3	4,222222222	2,6	3,274074074	2,285714286	5	miss
414,653	2	08Aw_4111	91	Sie ist davon verwirrt	44	414653	keine	0	116	22	4	-1,166666667	1,166666667	4,363636364	5,545454546	2,666666667	999	999	999	miss
418,693	2	08Aw_4111	92	### ##### ### #### #######	77	418693	keine	0	201	26	5	9	9	9	9	9	9	9	9	miss
425,722	2	08Aw_4111	93	## #### #### #####	77	425722	keine	0	259	18	4	9	9	9	9	9	9	9	9	miss
428,751	2	08Aw_4111	94	### ### ######### ### #####	77	428751	keine	0	249	27	5	9	9	9	9	9	9	9	9	miss
434,785	2	08Aw_4111	95	Wurden dir soeben Rautezeichen prŠsentiert?	88	434785	Ja	2058	908	43	5	9	9	9	9	9	9	9	9	correct
442,826	2	08Aw_4111	96	### #### ### ##### ######## ##	77	442826	keine	0	253	30	6	9	9	9	9	9	9	9	9	miss
445,86	2	08Aw_4111	97	#### ##### #### #####	77	445860	keine	0	184	21	4	9	9	9	9	9	9	9	9	miss
448,894	2	08Aw_4111	98	Er ist ein anstrengender Mensch	44	448894	keine	0	111	31	5	-1,75	1,75	5	5,454545455	2,75	999	999	999	miss
451,927	2	08Aw_4111	99	Sie denkt Ÿber die Vor- und Nachteile nach	55	451927	keine	0	134	42	8	0,166666667	0,166666667	3,4	4,818181818	2,416666667	999	999	999	miss
459,961	2	08Aw_4111	100	### ### ## ### ##### ###### #####	77	459961	keine	0	224	33	7	9	9	9	9	9	9	9	9	miss
